#
#   version : 20090611
#    num_fr : 99
#      time : 20110330 03:11:29.112 UTC
#      unix : 1301454689.112463
#       ntp : LOCK -2526 261964 2366
#       seq : 197480081
#       mul : 0 [A]
#      site : 01
#    latlon : 45.5749 -94.3965 370.0
#      text : Collegeville
#     label : 
#     plate : metal_20100816_20100506-404-gd3
#      geom : 640 480
#    reject : 0
#
#  fr    time   sum     seq       cx       cy      th      phi    lsp    mag  flag
   29  -1.335  1989 197480041  446.007   42.844  67.308   87.330  -6.40  -6.40  0000
   31  -1.268  2276 197480043  447.254   44.816  67.032   87.839  -6.63  -6.63  0000
   33  -1.201  2230 197480045  449.837   45.627  67.277   88.460  -6.73  -6.73  0000
   34  -1.168  2425 197480046  450.738   46.160  67.303   88.709  -6.74  -6.74  0000
   35  -1.134  2347 197480047  452.138   46.627  67.434   89.047  -7.03  -7.03  0000
   36  -1.101  2460 197480048  452.568   47.201  67.371   89.209  -6.80  -6.80  0000
   37  -1.068  2583 197480049  455.333   47.798  67.718   89.828  -7.10  -7.10  0000
   38  -1.034  2622 197480050  455.822   48.627  67.607   90.037  -7.37  -7.37  0000
   39  -1.001  2809 197480051  456.065   49.371  67.472   90.188  -7.13  -7.13  0000
   40  -0.968  2807 197480052  458.122   49.798  67.744   90.642  -7.34  -7.34  0000
   41  -0.934  3045 197480053  458.671   50.213  67.745   90.805  -7.28  -7.28  0000
   42  -0.901  3150 197480054  460.227   51.560  67.713   91.292  -7.57  -7.57  0000
   43  -0.868  2837 197480055  460.801   52.031  67.708   91.467  -7.43  -7.43  0000
   44  -0.834  2967 197480056  462.235   52.547  67.855   91.812  -7.55  -7.55  0000
   45  -0.801  3074 197480057  462.531   53.519  67.683   92.008  -7.60  -7.60  0000
   46  -0.767  3330 197480058  465.149   53.929  68.084   92.555  -7.82  -7.82  0000
   47  -0.734  3350 197480059  466.042   54.861  68.039   92.857  -7.87  -7.87  0000
   48  -0.701  3519 197480060  467.053   55.975  67.976   93.207  -7.81  -7.81  0000
   49  -0.667  3572 197480061  467.879   56.380  68.043   93.419  -8.03  -8.03  0000
   50  -0.634  3958 197480062  469.918   56.862  68.331   93.862  -7.96  -7.96  0000
   51  -0.601  3621 197480063  470.295   57.779  68.196   94.068  -7.97  -7.97  0000
   52  -0.567  3961 197480064  471.881   58.484  68.350   94.460  -8.09  -8.09  0000
   53  -0.534  4226 197480065  472.057   59.492  68.157   94.644  -8.40  -8.40  0000
   54  -0.500  4829 197480066  473.427   60.186  68.275   94.995  -8.42  -8.42  0000
   55  -0.467  4621 197480067  475.300   60.480  68.587   95.373  -8.51  -8.51  0000
   56  -0.434  4961 197480068  476.126   61.564  68.513   95.686  -8.61  -8.61  0000
   57  -0.400  4982 197480069  477.408   62.259  68.621   96.018  -8.64  -8.64  0000
   58  -0.367  5320 197480070  477.735   63.363  68.444   96.247  -8.78  -8.78  0000
   59  -0.334  4826 197480071  479.553   64.085  68.661   96.676  -8.48  -8.48  0000
   60  -0.300  5786 197480072  480.726   64.511  68.812   96.945  -8.72  -8.72  0000
   61  -0.267  4774 197480073  481.923   65.517  68.844   97.309  -8.58  -8.58  0000
   62  -0.234  5151 197480074  482.397   66.131  68.811   97.488  -8.69  -8.69  0000
   63  -0.200  5747 197480075  484.118   67.688  68.841   98.028  -8.86  -8.86  0000
   64  -0.167  5012 197480076  484.978   68.335  68.885   98.277  -8.55  -8.55  0000
   65  -0.133  5358 197480077  486.423   69.263  68.998   98.669  -8.80  -8.80  0000
   66  -0.100  5217 197480078  487.284   69.863  69.057   98.909  -8.73  -8.73  0000
   67  -0.067  5069 197480079  488.624   70.922  69.125   99.303  -8.66  -8.66  0000
   68  -0.033  4975 197480080  489.277   71.690  69.106   99.536  -8.64  -8.64  0000
   69   0.000  5991 197480081  491.151   72.247  69.402   99.933  -8.84  -8.84  0000
   70   0.033  5004 197480082  491.674   73.523  69.253  100.228  -8.67  -8.67  0000
   71   0.067  4895 197480083  492.619   73.939  69.377  100.450  -8.51  -8.51  0000
   72   0.100  5246 197480084  493.817   75.636  69.296  100.924  -8.62  -8.62  0000
   73   0.133  4891 197480085  494.623   76.033  69.396  101.119  -8.56  -8.56  0000
   74   0.167  5243 197480086  496.030   77.401  69.437  101.571  -8.72  -8.72  0000
   75   0.200  5210 197480087  497.971   77.945  69.769  101.967  -8.53  -8.53  0000
   76   0.234  4799 197480088  498.666   78.423  69.832  102.156  -8.52  -8.52  0000
   77   0.267  4899 197480089  499.404   79.806  69.726  102.505  -8.46  -8.46  0000
   78   0.300  4662 197480090  500.915   80.782  69.881  102.903  -8.46  -8.46  0000
   79   0.334  4852 197480091  502.181   82.001  69.936  103.305  -8.50  -8.50  0000
   80   0.367  4391 197480092  502.860   82.764  69.946  103.539  -8.35  -8.35  0000
   81   0.400  4834 197480093  504.731   83.536  70.235  103.952  -8.37  -8.37  0000
   82   0.434  4390 197480094  505.535   84.185  70.300  104.184  -8.44  -8.44  0000
   83   0.467  4587 197480095  506.266   85.444  70.232  104.510  -8.39  -8.39  0000
   84   0.501  4416 197480096  507.600   86.604  70.329  104.908  -8.28  -8.28  0000
   85   0.534  4916 197480097  508.982   87.927  70.410  105.341  -8.44  -8.44  0000
   86   0.567  4379 197480098  509.556   88.546  70.432  105.532  -8.34  -8.34  0000
   87   0.601  4880 197480099  511.301   89.581  70.662  105.964  -8.41  -8.41  0000
   88   0.634  4304 197480100  511.600   90.250  70.611  106.125  -8.24  -8.24  0000
   89   0.667  4908 197480101  512.497   91.643  70.573  106.499  -8.45  -8.45  0000
   90   0.701  4334 197480102  514.048   92.628  70.773  106.891  -8.29  -8.29  0000
   91   0.734  4519 197480103  514.384   93.766  70.650  107.141  -8.41  -8.41  0000
   92   0.767  4449 197480104  515.915   94.568  70.884  107.496  -8.33  -8.33  0000
   93   0.801  4773 197480105  516.520   96.044  70.770  107.844  -8.48  -8.48  0000
   94   0.834  4228 197480106  518.561   96.193  71.254  108.148  -8.34  -8.34  0000
   95   0.868  4712 197480107  519.017   97.683  71.105  108.478  -8.38  -8.38  0000
   96   0.901  4615 197480108  520.421   98.629  71.294  108.836  -8.38  -8.38  0000
   97   0.934  4668 197480109  521.130   99.730  71.282  109.130  -8.41  -8.41  0000
   98   0.968  4614 197480110  522.495  100.630  71.474  109.472  -8.35  -8.35  0000
   99   1.001  4482 197480111  522.482  101.739  71.281  109.673  -8.41  -8.41  0000
  100   1.034  4899 197480112  524.826  102.623  71.731  110.136  -8.42  -8.42  0000
  101   1.068  4430 197480113  524.970  104.147  71.512  110.434  -8.37  -8.37  0000
  102   1.101  5183 197480114  526.793  104.887  71.860  110.801  -8.43  -8.43  0000
  103   1.134  4430 197480115  526.968  105.867  71.743  111.003  -8.36  -8.36  0000
  104   1.168  4995 197480116  528.511  107.300  71.909  111.460  -8.51  -8.51  0000
  105   1.201  4455 197480117  528.787  107.818  71.896  111.590  -8.35  -8.35  0000
  106   1.235  5505 197480118  529.932  108.946  72.014  111.939  -8.53  -8.53  0000
  107   1.268  4308 197480119  531.055  110.166  72.114  112.302  -8.35  -8.35  0000
  108   1.301  4831 197480120  531.411  111.432  72.006  112.581  -8.55  -8.55  0000
  109   1.335  4408 197480121  532.916  112.201  72.284  112.904  -8.31  -8.31  0000
  110   1.368  4990 197480122  532.802  113.684  72.021  113.169  -8.67  -8.67  0000
  111   1.401  4641 197480123  535.430  114.056  72.665  113.545  -8.33  -8.33  0000
  112   1.435  5448 197480124  535.733  115.525  72.520  113.856  -8.64  -8.64  0000
  113   1.468  4999 197480125  536.497  115.998  72.654  114.033  -8.52  -8.52  0000
  114   1.502  5465 197480126  537.034  117.820  72.522  114.438  -8.71  -8.71  0000
  115   1.535  4887 197480127  537.832  118.160  72.687  114.592  -8.52  -8.52  0000
  116   1.568  4843 197480128  539.065  119.576  72.811  114.998  -8.57  -8.57  0000
  117   1.602  5683 197480129  539.962  120.630  72.899  115.297  -8.65  -8.65  0000
  118   1.635  5060 197480130  540.967  121.774  73.007  115.624  -8.59  -8.59  0000
  119   1.668  5208 197480131  541.429  122.854  72.977  115.879  -8.62  -8.62  0000
  120   1.702  5262 197480132  542.709  124.040  73.159  116.243  -8.57  -8.57  0000
  121   1.735  4810 197480133  543.130  124.758  73.173  116.424  -8.38  -8.38  0000
  122   1.768  4333 197480134  544.723  125.924  73.450  116.814  -8.09  -8.09  0000
  123   1.802  3602 197480135  545.820  126.896  73.619  117.114  -7.75  -7.75  0000
  124   1.835  3866 197480136  545.611  127.908  73.420  117.287  -7.77  -7.77  0000
  125   1.869  4878 197480137  546.728  129.178  73.558  117.645  -8.49  -8.49  0000
  126   1.902  4089 197480138  546.956  129.860  73.529  117.799  -8.14  -8.14  0000
  127   1.935  3846 197480139  549.042  130.796  73.988  118.187  -7.71  -7.71  0000
  128   1.969  2594 197480140  548.392  131.872  73.661  118.331  -6.75  -6.75  0000
  131   2.069  2622 197480143  551.222  134.907  74.062  119.192  -6.84  -6.84  0000
