#
#   version : 20090611
#    num_fr : 80
#      time : 20100821 06:50:24.350 UTC
#      unix : 1282373424.350268
#       ntp : LOCK 17 546659 479
#       seq : 18867692
#       mul : 0 [A]
#      site : 01
#    latlon : 45.5749 -94.3965 370.0
#      text : Collegeville
#     label : 
#     plate : metal 20090611
#      geom : 640 480
#    reject : 0
#
#  fr    time   sum     seq       cx       cy      th      phi    lsp    mag  flag
   29  -2.202  2802 18867626  418.989   46.759  58.684   86.661  -6.37  -6.37  0000
   31  -2.135  2677 18867628  417.739   44.835  58.980   86.132  -6.19  -6.19  0000
   32  -2.102  2916 18867629  418.673   44.073  59.309   86.246  -6.51  -6.51  0000
   33  -2.069  2992 18867630  418.611   43.856  59.354   86.204  -6.56  -6.56  0000
   35  -2.002  2738 18867632  421.458   42.183  60.197   86.625  -6.61  -6.61  0000
   36  -1.969  3273 18867633  422.035   41.616  60.425   86.680  -6.86  -6.86  0000
   37  -1.935  2645 18867634  422.663   40.996  60.675   86.739  -6.97  -6.97  0000
   38  -1.902  3193 18867635  422.867   40.492  60.833   86.720  -6.82  -6.82  0000
   39  -1.869  3332 18867636  423.012   39.728  61.047   86.655  -6.86  -6.86  0000
   40  -1.835  3192 18867637  423.286   39.452  61.157   86.680  -6.90  -6.90  0000
   41  -1.802  3330 18867638  423.648   38.618  61.422   86.654  -7.19  -7.19  0000
   42  -1.768  3643 18867639  422.515   37.100  61.635   86.223  -7.03  -7.03  0000
   43  -1.735  3738 18867640  423.342   36.751  61.847   86.358  -7.26  -7.26  0000
   44  -1.702  3887 18867641  424.966   35.908  62.304   86.602  -7.43  -7.43  0000
   45  -1.668  3881 18867642  425.084   35.457  62.436   86.572  -7.40  -7.40  0000
   46  -1.635  3877 18867643  425.896   34.795  62.726   86.663  -7.37  -7.37  0000
   47  -1.602  3911 18867644  426.008   34.630  62.785   86.667  -7.43  -7.43  0000
   48  -1.568  4253 18867645  426.672   33.553  63.159   86.676  -7.62  -7.62  0000
   49  -1.535  4018 18867646  426.944   33.370  63.246   86.711  -7.58  -7.58  0000
   50  -1.502  4194 18867647  427.716   32.563  63.569   86.774  -7.62  -7.62  0000
   51  -1.468  3978 18867648  425.947   31.698  63.520   86.301  -7.47  -7.47  0000
   52  -1.435  4325 18867649  426.779   30.994  63.825   86.391  -7.59  -7.59  0000
   53  -1.401  4361 18867650  428.191   29.993  64.294   86.565  -7.69  -7.69  0000
   54  -1.368  4018 18867651  428.575   29.666  64.436   86.605  -7.60  -7.60  0000
   55  -1.335  4213 18867652  429.111   28.888  64.717   86.623  -7.86  -7.86  0000
   56  -1.301  4522 18867653  429.216   28.729  64.773   86.626  -7.67  -7.67  0000
   57  -1.268  3946 18867654  429.926   27.752  65.131   86.655  -7.62  -7.62  0000
   58  -1.235  4310 18867655  430.126   27.621  65.195   86.681  -7.66  -7.66  0000
   59  -1.201  4551 18867656  430.944   26.575  65.588   86.724  -7.83  -7.83  0000
   60  -1.168  4242 18867657  431.010   26.424  65.637   86.719  -7.58  -7.58  0000
   61  -1.134  4443 18867658  431.751   25.586  65.966   86.771  -7.55  -7.55  0000
   62  -1.101  3668 18867659  431.672   25.267  66.036   86.718  -7.68  -7.68  0000
   63  -1.068  3964 18867660  432.124   24.062  66.415   86.668  -7.53  -7.53  0000
   64  -1.034  4291 18867661  432.253   23.675  66.534   86.649  -7.84  -7.84  0000
   65  -1.001  4656 18867662  432.139   23.691  66.512   86.628  -7.73  -7.73  0000
   66  -0.968  4581 18867663  433.052   22.613  66.930   86.686  -7.82  -7.82  0000
   67  -0.934  4592 18867664  433.575   21.976  67.175   86.716  -7.93  -7.93  0000
   68  -0.901  4335 18867665  433.809   21.654  67.294   86.725  -8.04  -8.04  0000
   69  -0.868  4689 18867666  434.043   20.860  67.536   86.681  -7.90  -7.90  0000
   70  -0.834  3940 18867667  434.144   20.502  67.644   86.660  -7.85  -7.85  0000
   71  -0.801  4693 18867668  434.896   19.573  68.001   86.702  -7.80  -7.80  0000
   72  -0.767  4942 18867669  434.913   19.394  68.050   86.685  -7.98  -7.98  0000
   73  -0.734  5310 18867670  435.029   19.303  68.091   86.697  -8.10  -8.10  0000
   74  -0.701  5312 18867671  435.258   17.943  68.479   86.588  -8.27  -8.27  0000
   75  -0.667  5380 18867672  435.496   17.629  68.597   86.599  -8.23  -8.23  0000
   76  -0.634  4770 18867673  435.512   17.462  68.643   86.583  -8.12  -8.12  0000
   77  -0.601  5394 18867674  436.344   16.675  68.977   86.656  -8.20  -8.20  0000
   78  -0.567  5578 18867675  436.458   16.418  69.062   86.649  -8.32  -8.32  0000
   79  -0.534  6100 18867676  437.089   15.550  69.386   86.674  -8.43  -8.43  0000
   80  -0.500  4699 18867677  437.412   15.186  69.531   86.695  -8.25  -8.25  0000
   81  -0.467  5649 18867678  437.511   14.995  69.596   86.693  -8.37  -8.37  0000
   82  -0.434  5594 18867679  438.159   14.348  69.867   86.745  -8.39  -8.39  0000
   83  -0.400  6245 18867680  438.181   14.275  69.889   86.741  -8.55  -8.55  0000
   84  -0.367  5994 18867681  438.930   13.382  70.240   86.784  -8.48  -8.48  0000
   85  -0.334  6275 18867682  439.104   12.458  70.508   86.715  -8.62  -8.62  0000
   86  -0.300  5100 18867683  439.472   11.680  70.770   86.699  -8.71  -8.71  0000
   87  -0.267  4756 18867684  439.646   11.468  70.853   86.709  -8.60  -8.60  0000
   88  -0.234  5671 18867685  439.512   10.772  71.014   86.608  -8.60  -8.60  0000
   89  -0.200  4966 18867686  439.718   10.642  71.081   86.632  -8.54  -8.54  0000
   90  -0.167  5263 18867687  439.584   10.877  70.998   86.633  -8.64  -8.64  0000
   91  -0.133  6265 18867688  439.874   10.317  71.191   86.626  -8.62  -8.62  0000
   92  -0.100  5123 18867689  440.649    9.431  71.545   86.675  -8.69  -8.69  0000
   93  -0.067  4618 18867690  440.973    9.013  71.707   86.690  -8.58  -8.58  0000
   94  -0.033  5672 18867691  440.755    9.167  71.632   86.666  -8.50  -8.50  0000
   95   0.000  6534 18867692  441.349    8.507  71.899   86.705  -8.60  -8.60  0000
   96   0.033  4768 18867693  441.551    8.133  72.030   86.702  -8.45  -8.45  0000
   97   0.067  5420 18867694  441.992    7.407  72.291   86.705  -8.32  -8.32  0000
   98   0.100  5047 18867695  442.229    7.398  72.331   86.748  -8.36  -8.36  0000
   99   0.133  5090 18867696  442.207    7.168  72.388   86.719  -8.38  -8.38  0000
  100   0.167  4280 18867697  443.001    6.300  72.744   86.772  -8.34  -8.34  0000
  101   0.200  4351 18867698  442.666    5.585  72.879   86.634  -8.41  -8.41  0000
  102   0.234  4305 18867699  442.681    5.448  72.918   86.622  -8.43  -8.43  0000
  103   0.267  4667 18867700  442.681    5.393  72.932   86.616  -8.38  -8.38  0000
  104   0.300  5441 18867701  442.507    5.042  72.998   86.547  -8.47  -8.47  0000
  105   0.334  5731 18867702  443.856    4.236  73.426   86.708  -8.17  -8.17  0000
  106   0.367  4001 18867703  443.877    3.969  73.500   86.683  -7.94  -7.94  0000
  107   0.400  2846 18867704  443.973    4.058  73.492   86.710  -7.53  -7.53  0000
  108   0.434  3792 18867705  444.066    4.039  73.512   86.725  -7.28  -7.28  0000
  109   0.467  4227 18867706  444.762    3.526  73.759   86.797  -7.08  -7.08  0000
  110   0.501  3638 18867707  443.838    4.043  73.474   86.684  -6.66  -6.66  0000
