#
#   version : 20090611
#    num_fr : 129
#      time : 20140805 03:00:28.275 UTC
#      unix : 1407207628.275431
#       ntp : LOCK -255 290150 374
#       seq : 8536816
#       mul : 0 [A]
#      site : 01
#    latlon : 45.5749 -94.3965 370.0
#      text : Collegeville
#     label : 
#     plate : metal_20100816_20100506-404-gd3
#      geom : 640 480
#    reject : 0
#
#  fr    time   sum     seq       cx       cy      th      phi    lsp    mag  flag
   30  -1.235  6139 8536779  137.810  192.613  50.178  -19.012  -8.84  -2.02  0000
   31  -1.201  6953 8536780  137.868  192.736  50.151  -19.042  -8.91  -2.09  0000
   32  -1.168  7423 8536781  138.234  192.753  50.048  -19.011  -9.13  -2.31  0000
   33  -1.134  8047 8536782  138.357  192.448  50.040  -18.910  -9.24  -2.42  0000
   34  -1.101  7834 8536783  138.631  193.406  49.883  -19.160  -9.30  -2.48  0000
   35  -1.068  7626 8536784  139.401  192.908  49.712  -18.939  -9.16  -2.34  0000
   36  -1.034  7679 8536785  139.418  192.886  49.709  -18.931  -9.10  -2.28  0000
   37  -1.001  7617 8536786  140.218  192.484  49.523  -18.733  -9.05  -2.23  0000
   38  -0.968  9670 8536787  138.695  192.017  49.984  -18.752  -9.71  -2.89  0000
   39  -0.934  6181 8536788  140.854  192.507  49.346  -18.675  -8.80  -1.98  0000
   40  -0.901  6387 8536789  140.903  192.494  49.334  -18.666  -8.80  -1.98  0000
   41  -0.868  6835 8536790  141.059  192.462  49.293  -18.641  -8.95  -2.13  0000
   42  -0.834  7309 8536791  141.277  192.391  49.239  -18.598  -9.13  -2.31  0000
   43  -0.801  7348 8536792  141.570  192.514  49.148  -18.604  -9.29  -2.47  0000
   44  -0.767  8147 8536793  142.354  192.422  48.940  -18.496  -9.33  -2.51  0000
   45  -0.734  7557 8536794  142.699  192.784  48.814  -18.566  -9.24  -2.42  0000
   46  -0.701  7106 8536795  142.807  192.721  48.789  -18.536  -9.13  -2.31  0000
   47  -0.667  7231 8536796  143.890  192.408  48.519  -18.330  -9.04  -2.22  0000
   48  -0.634  6849 8536797  144.257  192.334  48.425  -18.270  -8.99  -2.17  0000
   49  -0.601  6558 8536798  144.368  192.201  48.407  -18.219  -8.95  -2.13  0000
   50  -0.567  6310 8536799  144.668  192.249  48.320  -18.201  -8.98  -2.16  0000
   51  -0.534  6962 8536800  144.783  192.330  48.282  -18.212  -9.02  -2.20  0000
   52  -0.501  7520 8536801  145.198  192.309  48.170  -18.162  -9.19  -2.37  0000
   53  -0.467  7745 8536802  145.222  192.176  48.175  -18.120  -9.24  -2.42  0000
   54  -0.434  7699 8536803  145.582  192.251  48.070  -18.103  -9.32  -2.50  0000
   55  -0.400  7846 8536804  146.320  192.488  47.847  -18.094  -9.23  -2.41  0000
   56  -0.367  7890 8536805  146.425  192.531  47.814  -18.096  -9.17  -2.35  0000
   57  -0.334  7736 8536806  147.346  192.174  47.594  -17.888  -9.13  -2.31  0000
   58  -0.300  6957 8536807  147.469  192.101  47.568  -17.853  -8.97  -2.15  0000
   59  -0.267  6683 8536808  147.731  191.955  47.509  -17.780  -8.92  -2.10  0000
   60  -0.234  6928 8536809  147.903  192.018  47.457  -17.780  -8.94  -2.12  0000
   61  -0.200  6931 8536810  148.127  191.938  47.403  -17.731  -9.00  -2.18  0000
   62  -0.167  7152 8536811  148.427  191.927  47.322  -17.694  -9.12  -2.30  0000
   63  -0.133  7662 8536812  148.653  191.978  47.256  -17.684  -9.30  -2.48  0000
   64  -0.100  7840 8536813  149.356  191.593  47.100  -17.489  -9.33  -2.51  0000
   65  -0.067  8117 8536814  150.269  191.975  46.817  -17.501  -9.23  -2.41  0000
   66  -0.033  6585 8536815  150.597  191.853  46.739  -17.427  -9.03  -2.21  0000
   67   0.000 10106 8536816  149.557  191.095  47.091  -17.315  -9.66  -2.84  0000
   68   0.033  6738 8536817  150.905  191.896  46.651  -17.405  -8.85  -2.03  0000
   69   0.067  6748 8536818  151.080  191.803  46.612  -17.356  -8.88  -2.06  0000
   70   0.100  6722 8536819  151.433  191.882  46.509  -17.340  -8.97  -2.15  0000
   71   0.133  6755 8536820  151.600  191.678  46.483  -17.258  -9.06  -2.24  0000
   72   0.167  8013 8536821  152.303  191.484  46.311  -17.117  -9.31  -2.49  0000
   73   0.200  8181 8536822  152.577  191.508  46.234  -17.092  -9.41  -2.59  0000
   74   0.234  8074 8536823  153.128  191.418  46.094  -17.000  -9.27  -2.45  0000
   75   0.267  7476 8536824  154.112  191.274  45.841  -16.838  -9.07  -2.25  0000
   76   0.300  7005 8536825  154.182  191.313  45.819  -16.842  -8.97  -2.15  0000
   77   0.334  6931 8536826  154.572  191.597  45.687  -16.883  -8.96  -2.14  0000
   78   0.367  7077 8536827  154.712  191.628  45.646  -16.876  -9.03  -2.21  0000
   79   0.400  7400 8536828  155.072  191.254  45.585  -16.717  -9.14  -2.32  0000
   80   0.434  7540 8536829  155.254  191.748  45.489  -16.849  -9.20  -2.38  0000
   81   0.467  8179 8536830  155.503  191.272  45.467  -16.670  -9.36  -2.54  0000
   82   0.501  7997 8536831  156.085  190.926  45.343  -16.491  -9.26  -2.44  0000
   83   0.534  7320 8536832  156.526  191.125  45.206  -16.499  -9.21  -2.39  0000
   84   0.567  7283 8536833  157.034  190.843  45.096  -16.348  -9.06  -2.24  0000
   85   0.601  7330 8536834  157.562  191.453  44.896  -16.474  -9.05  -2.23  0000
   86   0.634  6671 8536835  157.919  191.506  44.795  -16.447  -8.95  -2.13  0000
   87   0.667  7005 8536836  158.077  191.503  44.753  -16.426  -9.01  -2.19  0000
   88   0.701  7363 8536837  158.283  191.547  44.694  -16.415  -9.14  -2.32  0000
   89   0.734  7532 8536838  158.524  191.475  44.636  -16.362  -9.22  -2.40  0000
   90   0.767  7883 8536839  159.161  191.115  44.500  -16.167  -9.23  -2.41  0000
   91   0.801  7171 8536840  159.560  191.055  44.399  -16.097  -9.17  -2.35  0000
   92   0.834  7542 8536841  160.145  190.722  44.275  -15.917  -9.11  -2.29  0000
   93   0.868  7396 8536842  160.314  190.559  44.246  -15.843  -9.11  -2.29  0000
   94   0.901  7303 8536843  160.958  191.129  44.018  -15.942  -9.04  -2.22  0000
   95   0.934  6799 8536844  161.149  191.182  43.962  -15.934  -8.95  -2.13  0000
   96   0.968  6614 8536845  161.686  191.330  43.805  -15.912  -9.12  -2.30  0000
   97   1.001  8380 8536846  160.970  190.116  44.115  -15.617  -9.67  -2.85  0000
   98   1.034  7369 8536847  162.458  190.940  43.637  -15.686  -9.23  -2.41  0000
   99   1.068  6439 8536848  162.916  190.845  43.525  -15.594  -9.17  -2.35  0000
  100   1.101  7024 8536849  163.447  190.546  43.413  -15.427  -9.11  -2.29  0000
  101   1.134  7480 8536850  163.539  190.372  43.406  -15.358  -9.16  -2.34  0000
  102   1.168  6864 8536851  164.573  191.096  43.060  -15.454  -9.11  -2.29  0000
  103   1.201  6783 8536852  164.795  191.054  43.005  -15.411  -8.96  -2.14  0000
  104   1.235  7183 8536853  165.072  191.289  42.908  -15.450  -9.10  -2.28  0000
  105   1.268  7616 8536854  165.279  191.210  42.861  -15.397  -9.21  -2.39  0000
  106   1.301  7726 8536855  165.565  190.689  42.838  -15.187  -9.27  -2.45  0000
  107   1.335  7911 8536856  166.153  190.356  42.716  -14.997  -9.23  -2.41  0000
  108   1.368  7429 8536857  166.567  190.321  42.610  -14.928  -9.18  -2.36  0000
  109   1.401  7487 8536858  166.746  190.226  42.573  -14.872  -9.21  -2.39  0000
  110   1.435  6879 8536859  167.737  190.720  42.261  -14.896  -9.17  -2.35  0000
  111   1.468  7412 8536860  168.050  190.975  42.152  -14.937  -9.09  -2.27  0000
  112   1.502  7139 8536861  168.332  190.941  42.081  -14.886  -9.08  -2.26  0000
  113   1.535  7655 8536862  169.037  190.581  41.932  -14.666  -9.17  -2.35  0000
  114   1.568  7767 8536863  169.380  190.567  41.844  -14.613  -9.21  -2.39  0000
  115   1.602  7600 8536864  169.456  190.653  41.815  -14.630  -9.21  -2.39  0000
  116   1.635  7945 8536865  170.236  190.034  41.674  -14.311  -9.30  -2.48  0000
  117   1.668  7753 8536866  170.325  190.098  41.644  -14.320  -9.24  -2.42  0000
  118   1.702  7650 8536867  171.003  189.815  41.496  -14.126  -9.26  -2.44  0000
  119   1.735  7892 8536868  171.758  190.389  41.238  -14.207  -9.15  -2.33  0000
  120   1.768  7293 8536869  171.984  190.353  41.183  -14.161  -9.03  -2.21  0000
  121   1.802  7125 8536870  172.518  190.387  41.039  -14.094  -9.11  -2.29  0000
  122   1.835  7447 8536871  172.544  190.503  41.021  -14.129  -9.15  -2.33  0000
  123   1.869  7556 8536872  173.385  190.068  40.847  -13.856  -9.19  -2.37  0000
  124   1.902  7563 8536873  173.618  189.874  40.807  -13.754  -9.25  -2.43  0000
  125   1.935  7774 8536874  173.649  189.798  40.807  -13.724  -9.30  -2.48  0000
  126   1.969  7817 8536875  174.422  189.553  40.632  -13.522  -9.29  -2.47  0000
  127   2.002  6989 8536876  175.185  190.072  40.378  -13.582  -9.06  -2.24  0000
  128   2.035  7637 8536877  175.404  190.285  40.298  -13.621  -9.10  -2.28  0000
  129   2.069  7839 8536878  176.206  189.945  40.126  -13.379  -9.20  -2.38  0000
  130   2.102  7491 8536879  176.461  189.917  40.063  -13.330  -9.17  -2.35  0000
  131   2.135  7649 8536880  176.732  189.908  39.994  -13.284  -9.24  -2.42  0000
  132   2.169  7614 8536881  176.874  189.790  39.970  -13.221  -9.32  -2.50  0000
  133   2.202  7940 8536882  177.557  189.361  39.840  -12.964  -9.32  -2.50  0000
  134   2.236  7599 8536883  178.592  189.892  39.514  -12.982  -9.16  -2.34  0000
  135   2.269  7592 8536884  179.029  190.006  39.389  -12.951  -9.14  -2.32  0000
  136   2.302  7812 8536885  179.307  190.092  39.308  -12.936  -9.23  -2.41  0000
  137   2.336  7523 8536886  179.908  189.665  39.200  -12.688  -9.21  -2.39  0000
  138   2.369  7980 8536887  180.291  189.440  39.126  -12.546  -9.29  -2.47  0000
  139   2.402  7742 8536888  180.652  189.335  39.045  -12.450  -9.34  -2.52  0000
  140   2.436  7934 8536889  181.139  188.996  38.958  -12.249  -9.34  -2.52  0000
  141   2.469  7725 8536890  181.306  188.909  38.925  -12.190  -9.23  -2.41  0000
  142   2.503  7954 8536891  182.130  189.923  38.600  -12.409  -9.20  -2.38  0000
  143   2.536  7499 8536892  182.600  189.936  38.478  -12.334  -9.20  -2.38  0000
  144   2.569  7751 8536893  183.179  189.547  38.374  -12.097  -9.17  -2.35  0000
  145   2.603  7736 8536894  183.535  189.506  38.287  -12.022  -9.25  -2.43  0000
  146   2.636  7657 8536895  183.851  189.444  38.214  -11.945  -9.38  -2.56  0000
  147   2.669  8286 8536896  184.375  189.240  38.103  -11.781  -9.38  -2.56  0000
  148   2.703  7936 8536897  184.999  188.769  37.998  -11.503  -9.27  -2.45  0000
  149   2.736  7921 8536898  185.367  188.792  37.902  -11.446  -9.30  -2.48  0000
  150   2.769  7969 8536899  186.108  189.359  37.648  -11.518  -9.18  -2.36  0000
  151   2.803  7591 8536900  186.467  189.417  37.550  -11.474  -9.19  -2.37  0000
  152   2.836  7893 8536901  186.787  189.480  37.462  -11.440  -9.31  -2.49  0000
  153   2.870  7869 8536902  187.530  189.044  37.324  -11.148  -9.45  -2.63  0000
  154   2.903  8042 8536903  187.550  188.934  37.332  -11.104  -9.35  -2.53  0000
  155   2.936  8223 8536904  188.307  188.648  37.174  -10.861  -9.37  -2.55  0000
  156   2.970  7793 8536905  188.669  188.523  37.097  -10.749  -9.30  -2.48  0000
  157   3.003  7928 8536906  189.763  189.235  36.737  -10.805  -9.17  -2.35  0000
  158   3.036  7926 8536907  190.271  188.935  36.645  -10.599  -9.21  -2.39  0000
