#
#   version : 20090611
#    num_fr : 129
#      time : 20131107 01:31:38.474 UTC
#      unix : 1383787898.474074
#       ntp : LOCK 4055 229468 4863
#       seq : 186241432
#       mul : 0 [A]
#      site : 01
#    latlon : 45.5749 -94.3965 370.0
#      text : Collegeville
#     label : 
#     plate : metal_20100816_20100506-404-gd3
#      geom : 640 480
#    reject : 0
#
#  fr    time   sum     seq       cx       cy      th      phi    lsp    mag  flag
   29  -3.504  8150 186241327  147.899  329.757  49.787  -61.699  -9.23  -2.41  0000
   30  -3.470  8423 186241328  148.027  329.843  49.764  -61.740  -9.31  -2.49  0000
   31  -3.437  6992 186241329  148.518  330.217  49.680  -61.908  -9.34  -2.52  0000
   32  -3.403  8803 186241330  148.550  330.391  49.693  -61.960  -9.50  -2.68  0000
   33  -3.370  8738 186241331  148.698  330.610  49.681  -62.040  -9.54  -2.72  0000
   34  -3.337  8615 186241332  149.229  331.053  49.596  -62.233  -9.38  -2.56  0000
   35  -3.303  7440 186241333  149.480  331.177  49.545  -62.302  -9.17  -2.35  0000
   36  -3.270  6969 186241334  149.999  332.230  49.540  -62.661  -9.01  -2.19  0000
   37  -3.237  6402 186241335  149.872  332.244  49.575  -62.648  -8.80  -1.98  0000
   38  -3.203  6192 186241336  150.159  332.606  49.546  -62.786  -8.78  -1.96  0000
   39  -3.170  6267 186241337  150.953  332.513  49.328  -62.871  -8.82  -2.00  0000
   40  -3.136  6408 186241338  151.032  332.691  49.329  -62.931  -8.89  -2.07  0000
   41  -3.103  6286 186241339  151.643  332.771  49.181  -63.039  -8.81  -1.99  0000
   42  -3.070  5953 186241340  152.154  333.817  49.181  -63.398  -8.67  -1.85  0000
   43  -3.036  5709 186241341  151.836  334.328  49.329  -63.493  -8.57  -1.75  0000
   44  -3.003  5531 186241342  152.566  334.038  49.103  -63.518  -8.53  -1.71  0000
   45  -2.970  5880 186241343  152.786  334.243  49.073  -63.605  -8.57  -1.75  0000
   46  -2.936  5745 186241344  153.046  334.492  49.038  -63.711  -8.57  -1.75  0000
   47  -2.903  5012 186241345  154.056  334.902  48.831  -63.970  -8.50  -1.68  0000
   48  -2.870  5552 186241346  154.261  335.526  48.860  -64.171  -8.52  -1.70  0000
   49  -2.836  5272 186241347  154.452  335.554  48.815  -64.207  -8.46  -1.64  0000
   50  -2.803  4899 186241348  154.552  335.986  48.846  -64.340  -8.50  -1.68  0000
   51  -2.769  5251 186241349  154.505  336.190  48.885  -64.389  -8.57  -1.75  0000
   52  -2.736  5617 186241350  154.659  336.263  48.855  -64.432  -8.72  -1.90  0000
   53  -2.703  6175 186241351  154.767  336.492  48.858  -64.510  -8.86  -2.04  0000
   54  -2.669  7456 186241352  155.184  336.555  48.760  -64.590  -9.07  -2.25  0000
   55  -2.636  8130 186241353  155.419  336.847  48.738  -64.705  -9.37  -2.55  0000
   56  -2.603  8588 186241354  155.476  337.253  48.778  -64.824  -9.43  -2.61  0000
   57  -2.569  8683 186241355  156.122  337.301  48.620  -64.935  -9.39  -2.57  0000
   58  -2.536  8681 186241356  156.366  337.535  48.589  -65.036  -9.43  -2.61  0000
   59  -2.503  8464 186241357  156.068  338.143  48.747  -65.156  -9.69  -2.87  0000
   60  -2.469  7118 186241358  156.820  339.171  48.697  -65.551  -9.24  -2.42  0000
   61  -2.436  7624 186241359  157.072  339.364  48.660  -65.642  -9.45  -2.63  0000
   62  -2.402  9013 186241360  157.492  339.242  48.537  -65.674  -9.49  -2.67  0000
   63  -2.369  8080 186241361  157.611  339.303  48.515  -65.709  -9.45  -2.63  0000
   64  -2.336  7917 186241362  157.663  339.564  48.538  -65.788  -9.39  -2.57  0000
   65  -2.302  8575 186241363  158.751  340.370  48.376  -66.178  -9.30  -2.48  0000
   66  -2.269  8216 186241364  158.553  340.982  48.511  -66.312  -9.32  -2.50  0000
   67  -2.236  8382 186241365  158.730  341.280  48.509  -66.421  -9.44  -2.62  0000
   68  -2.202  7936 186241366  159.436  341.032  48.297  -66.467  -9.41  -2.59  0000
   69  -2.169  8277 186241367  159.547  341.196  48.292  -66.529  -9.36  -2.54  0000
   70  -2.135  8034 186241368  160.145  341.044  48.121  -66.584  -9.23  -2.41  0000
   71  -2.102  6910 186241369  160.666  341.896  48.112  -66.899  -9.04  -2.22  0000
   72  -2.069  5800 186241370  160.856  342.190  48.107  -67.010  -8.79  -1.97  0000
   73  -2.035  5782 186241371  160.988  342.084  48.059  -67.003  -8.81  -1.99  0000
   74  -2.002  5438 186241372  161.129  342.636  48.103  -67.175  -8.73  -1.91  0000
   75  -1.969  6110 186241373  161.215  342.476  48.058  -67.146  -8.88  -2.06  0000
   76  -1.935  6823 186241374  162.089  343.198  47.946  -67.486  -8.92  -2.10  0000
   77  -1.902  6501 186241375  162.326  343.202  47.888  -67.526  -8.83  -2.01  0000
   78  -1.869  6409 186241376  163.156  344.351  47.851  -67.975  -8.77  -1.95  0000
   79  -1.835  5703 186241377  163.304  344.504  47.837  -68.041  -8.60  -1.78  0000
   80  -1.802  5770 186241378  163.390  344.646  47.837  -68.094  -8.52  -1.70  0000
   81  -1.768  5618 186241379  163.747  344.891  47.785  -68.221  -8.52  -1.70  0000
   82  -1.735  6163 186241380  164.001  344.965  47.734  -68.284  -8.67  -1.85  0000
   83  -1.702  6127 186241381  164.643  344.666  47.532  -68.314  -8.72  -1.90  0000
   84  -1.668  5730 186241382  165.308  345.708  47.525  -68.709  -8.57  -1.75  0000
   85  -1.635  5177 186241383  165.552  345.946  47.501  -68.815  -8.47  -1.65  0000
   86  -1.602  5469 186241384  165.523  345.956  47.510  -68.813  -8.46  -1.64  0000
   87  -1.568  5708 186241385  165.622  346.182  47.520  -68.891  -8.51  -1.69  0000
   88  -1.535  6568 186241386  165.882  346.571  47.515  -69.041  -8.86  -2.04  0000
   89  -1.502  7299 186241387  166.095  346.620  47.471  -69.091  -9.05  -2.23  0000
   90  -1.468  7286 186241388  166.382  346.858  47.438  -69.205  -9.20  -2.38  0000
   91  -1.435  7946 186241389  166.830  347.113  47.368  -69.353  -9.28  -2.46  0000
   92  -1.401  7730 186241390  167.314  347.950  47.379  -69.662  -9.13  -2.31  0000
   93  -1.368  8186 186241391  167.513  348.168  47.365  -69.756  -9.18  -2.36  0000
   94  -1.335  7837 186241392  167.733  348.295  47.331  -69.829  -9.13  -2.31  0000
   95  -1.301  7513 186241393  167.980  348.510  47.305  -69.931  -9.16  -2.34  0000
   96  -1.268  9649 186241394  167.533  350.043  47.651  -70.255  -9.79  -2.97  0000
   97  -1.235  8888 186241395  168.527  348.807  47.220  -70.110  -9.52  -2.70  0000
   98  -1.201  9128 186241396  168.548  348.965  47.240  -70.155  -9.60  -2.78  0000
   99  -1.168  8587 186241397  168.766  349.969  47.345  -70.460  -9.51  -2.69  0000
  100  -1.134  8642 186241398  168.803  350.090  47.355  -70.499  -9.52  -2.70  0000
  101  -1.101  8874 186241399  169.917  351.072  47.245  -70.963  -9.33  -2.51  0000
  102  -1.068  9118 186241400  170.229  351.249  47.199  -71.068  -9.42  -2.60  0000
  103  -1.034  8794 186241401  170.421  351.480  47.190  -71.164  -9.47  -2.65  0000
  104  -1.001  8537 186241402  170.505  351.660  47.199  -71.227  -9.45  -2.63  0000
  105  -0.968  8428 186241403  171.086  351.044  46.963  -71.175  -9.37  -2.55  0000
  106  -0.934  7050 186241404  171.749  352.325  47.013  -71.637  -9.12  -2.30  0000
  107  -0.901  7090 186241405  171.827  352.636  47.045  -71.733  -8.90  -2.08  0000
  108  -0.868  6964 186241406  172.178  352.775  46.985  -71.836  -8.94  -2.12  0000
  109  -0.834  6726 186241407  172.425  352.966  46.958  -71.933  -8.99  -2.17  0000
  110  -0.801  6910 186241408  172.887  352.841  46.830  -71.989  -8.90  -2.08  0000
  111  -0.767  6325 186241409  174.082  353.550  46.667  -72.406  -8.74  -1.92  0000
  112  -0.734  6231 186241410  174.223  353.844  46.683  -72.511  -8.79  -1.97  0000
  113  -0.701  5567 186241411  174.229  354.012  46.709  -72.556  -8.67  -1.85  0000
  114  -0.667  5499 186241412  174.403  354.235  46.705  -72.648  -8.54  -1.72  0000
  115  -0.634  4970 186241413  174.546  354.297  46.682  -72.692  -8.58  -1.76  0000
  116  -0.601  5821 186241414  175.230  354.968  46.636  -73.001  -8.48  -1.66  0000
  117  -0.567  6165 186241415  175.630  355.096  46.565  -73.114  -8.62  -1.80  0000
  118  -0.534  5839 186241416  176.713  355.638  46.407  -73.471  -8.63  -1.81  0000
  119  -0.501  5551 186241417  176.862  355.861  46.411  -73.559  -8.46  -1.64  0000
  120  -0.467  5408 186241418  176.631  356.407  46.556  -73.652  -8.49  -1.67  0000
  121  -0.434  5053 186241419  176.710  356.544  46.561  -73.703  -8.36  -1.54  0000
  122  -0.400  5397 186241420  177.001  356.679  46.517  -73.797  -8.41  -1.59  0000
  123  -0.367  5761 186241421  177.392  356.974  46.479  -73.952  -8.72  -1.90  0000
  124  -0.334  6626 186241422  177.519  357.128  46.476  -74.018  -9.02  -2.20  0000
  125  -0.300  6528 186241423  178.089  356.977  46.320  -74.095  -9.13  -2.31  0000
  126  -0.267  7164 186241424  178.514  358.134  46.423  -74.478  -9.10  -2.28  0000
  127  -0.234  7187 186241425  178.718  358.406  46.424  -74.590  -9.02  -2.20  0000
  128  -0.200  7913 186241426  179.076  358.579  46.373  -74.708  -9.19  -2.37  0000
  129  -0.167  7953 186241427  179.329  358.783  46.351  -74.812  -9.30  -2.48  0000
  130  -0.133  8201 186241428  179.595  358.982  46.326  -74.918  -9.33  -2.51  0000
  131  -0.100  8028 186241429  179.808  359.188  46.314  -75.015  -9.44  -2.62  0000
  132  -0.067  8479 186241430  180.239  359.018  46.188  -75.062  -9.40  -2.58  0000
  133  -0.033  7962 186241431  180.884  359.753  46.172  -75.385  -9.26  -2.44  0000
  134   0.000 10004 186241432  181.070  359.976  46.170  -75.480  -9.57  -2.75  0000
  135   0.033  7846 186241433  181.446  360.301  46.144  -75.642  -9.24  -2.42  0000
  136   0.067  7933 186241434  181.648  360.450  46.125  -75.723  -9.35  -2.53  0000
  137   0.100  9125 186241435  181.742  360.672  46.144  -75.799  -9.66  -2.84  0000
  138   0.133  9456 186241436  182.262  360.786  46.049  -75.939  -9.60  -2.78  0000
  139   0.167  8444 186241437  182.676  361.156  46.024  -76.121  -9.47  -2.65  0000
  140   0.200  8013 186241438  183.070  361.465  45.992  -76.283  -9.29  -2.47  0000
  141   0.234  7044 186241439  183.748  362.502  46.030  -76.689  -8.99  -2.17  0000
  142   0.267  7107 186241440  184.054  362.591  45.979  -76.778  -9.05  -2.23  0000
  143   0.300  6974 186241441  184.294  362.871  45.977  -76.900  -9.07  -2.25  0000
  144   0.334  6283 186241442  184.466  363.080  45.978  -76.990  -8.95  -2.13  0000
  145   0.367  6197 186241443  185.112  362.674  45.763  -77.032  -8.85  -2.03  0000
  146   0.400  6470 186241444  185.175  362.826  45.777  -77.083  -8.93  -2.11  0000
  147   0.434  5590 186241445  185.758  363.833  45.835  -77.462  -8.61  -1.79  0000
  148   0.467  5284 186241446  186.105  364.078  45.805  -77.600  -8.53  -1.71  0000
  149   0.501  5349 186241447  186.295  364.168  45.781  -77.664  -8.58  -1.76  0000
  150   0.534  5874 186241448  186.607  364.487  45.773  -77.813  -8.79  -1.97  0000
  151   0.567  5273 186241449  187.526  365.244  45.716  -78.206  -8.49  -1.67  0000
  152   0.601  4909 186241450  187.567  365.441  45.744  -78.263  -8.44  -1.62  0000
  153   0.634  5010 186241451  187.719  365.693  45.759  -78.359  -8.48  -1.66  0000
  154   0.667  4819 186241452  187.866  365.884  45.763  -78.438  -8.41  -1.59  0000
  155   0.701  5069 186241453  188.730  365.753  45.555  -78.604  -8.49  -1.67  0000
  156   0.734  5204 186241454  188.981  366.425  45.628  -78.825  -8.45  -1.63  0000
  157   0.767  5105 186241455  190.122  366.305  45.365  -79.059  -8.34  -1.52  0000
