#
#   version : 20090611
#    num_fr : 80
#      time : 20130302 04:32:28.887 UTC
#      unix : 1362198748.887918
#       ntp : LOCK -80 481516 259
#       seq : 91234178
#       mul : 0 [A]
#      site : 01
#    latlon : 45.5749 -94.3965 370.0
#      text : Collegeville
#     label : 
#     plate : metal_20100816_20100506-404-gd3
#      geom : 640 480
#    reject : 0
#
#  fr    time   sum     seq       cx       cy      th      phi    lsp    mag  flag
   30  -1.969  1766 91234119  251.845  436.883  52.566 -107.505  -5.68   1.14  0000
   32  -1.902  1873 91234121  251.068  438.437  53.058 -107.424  -5.85   0.97  0000
   33  -1.869  1857 91234122  250.606  438.581  53.140 -107.307  -5.87   0.95  0000
   36  -1.768  2238 91234125  247.382  440.455  53.955 -106.585  -6.50   0.32  0000
   37  -1.735  2000 91234126  246.817  441.279  54.232 -106.505  -6.48   0.34  0000
   38  -1.702  2100 91234127  246.225  442.099  54.512 -106.418  -6.45   0.37  0000
   39  -1.668  2184 91234128  245.501  443.026  54.834 -106.306  -6.61   0.21  0000
   40  -1.635  2377 91234129  245.313  443.284  54.922 -106.278  -6.72   0.10  0000
   41  -1.602  2148 91234130  244.186  444.363  55.326 -106.074  -6.87  -0.05  0000
   42  -1.568  2590 91234131  244.806  445.035  55.446 -106.300  -7.31  -0.49  0000
   43  -1.535  2527 91234132  244.764  445.135  55.477 -106.297  -7.04  -0.22  0000
   44  -1.502  2614 91234133  243.786  446.275  55.884 -106.140  -7.24  -0.42  0000
   45  -1.468  2661 91234134  243.096  446.930  56.131 -106.016  -7.30  -0.48  0000
   46  -1.435  2849 91234135  242.535  447.453  56.329 -105.916  -7.26  -0.44  0000
   47  -1.401  2683 91234136  241.922  447.976  56.533 -105.803  -7.35  -0.53  0000
   48  -1.368  2615 91234137  241.769  448.789  56.769 -105.835  -7.35  -0.53  0000
   49  -1.335  3056 91234138  241.238  449.250  56.949 -105.739  -7.33  -0.51  0000
   50  -1.301  3316 91234139  240.382  449.949  57.227 -105.581  -7.60  -0.78  0000
   51  -1.268  3317 91234140  238.671  450.670  57.602 -105.208  -7.65  -0.83  0000
   52  -1.235  3324 91234141  238.448  451.026  57.722 -105.183  -7.73  -0.91  0000
   53  -1.201  3145 91234142  237.963  451.515  57.905 -105.104  -7.77  -0.95  0000
   54  -1.168  3526 91234143  237.413  452.353  58.191 -105.041  -7.98  -1.16  0000
   55  -1.134  3326 91234144  236.913  453.176  58.468 -104.989  -7.92  -1.10  0000
   56  -1.101  3627 91234145  236.728  453.240  58.505 -104.949  -7.97  -1.15  0000
   57  -1.068  3339 91234146  236.218  454.207  58.823 -104.908  -8.00  -1.18  0000
   58  -1.034  3590 91234147  235.362  454.972  59.123 -104.764  -8.09  -1.27  0000
   59  -1.001  3782 91234148  235.085  454.930  59.142 -104.691  -8.12  -1.30  0000
   60  -0.968  3806 91234149  234.353  455.727  59.438 -104.583  -8.06  -1.24  0000
   61  -0.934  3739 91234150  234.099  456.318  59.627 -104.573  -8.03  -1.21  0000
   62  -0.901  3580 91234151  232.571  457.168  60.027 -104.276  -8.03  -1.21  0000
   63  -0.868  3647 91234152  232.687  457.462  60.094 -104.331  -8.03  -1.21  0000
   64  -0.834  3559 91234153  231.747  458.010  60.347 -104.152  -8.05  -1.23  0000
   65  -0.801  3719 91234154  231.012  459.132  60.735 -104.077  -8.08  -1.26  0000
   66  -0.767  3692 91234155  230.832  459.168  60.765 -104.037  -8.16  -1.34  0000
   67  -0.734  3760 91234156  229.858  459.946  61.087 -103.874  -8.14  -1.32  0000
   68  -0.701  3672 91234157  229.581  460.344  61.227 -103.844  -8.07  -1.25  0000
   69  -0.667  3758 91234158  229.057  460.927  61.446 -103.772  -8.19  -1.37  0000
   70  -0.634  4024 91234159  228.419  461.345  61.633 -103.659  -8.20  -1.38  0000
   71  -0.601  3873 91234160  227.995  461.971  61.852 -103.615  -8.31  -1.49  0000
   72  -0.567  3728 91234161  227.757  462.377  61.990 -103.596  -8.29  -1.47  0000
   73  -0.534  4316 91234162  227.415  462.981  62.195 -103.570  -8.33  -1.51  0000
   74  -0.501  4417 91234163  226.796  463.511  62.411 -103.473  -8.30  -1.48  0000
   75  -0.467  4385 91234164  226.099  463.693  62.542 -103.327  -8.41  -1.59  0000
   76  -0.434  4216 91234165  226.266  464.772  62.817 -103.464  -8.22  -1.40  0000
   77  -0.400  4144 91234166  224.889  464.669  62.951 -103.135  -8.23  -1.41  0000
   78  -0.367  4171 91234167  224.194  465.631  63.296 -103.063  -8.28  -1.46  0000
   79  -0.334  4325 91234168  224.050  465.916  63.391 -103.055  -8.35  -1.53  0000
   80  -0.300  4219 91234169  223.192  466.503  63.653 -102.912  -8.24  -1.42  0000
   81  -0.267  3790 91234170  222.319  467.194  63.947 -102.776  -8.25  -1.43  0000
   82  -0.234  4364 91234171  221.967  467.493  64.071 -102.724  -8.32  -1.50  0000
   83  -0.200  3968 91234172  221.697  467.962  64.232 -102.705  -8.40  -1.58  0000
   84  -0.167  3978 91234173  221.259  468.622  64.466 -102.666  -8.29  -1.47  0000
   85  -0.133  4049 91234174  221.251  468.720  64.494 -102.673  -8.33  -1.51  0000
   86  -0.100  4207 91234175  220.913  469.786  64.826 -102.694  -8.41  -1.59  0000
   87  -0.067  4209 91234176  220.141  470.173  65.027 -102.556  -8.24  -1.42  0000
   88  -0.033  4206 91234177  219.781  470.814  65.246 -102.534  -8.38  -1.56  0000
   89   0.000  4660 91234178  219.436  471.169  65.386 -102.489  -8.36  -1.54  0000
   90   0.033  4562 91234179  218.214  470.928  65.471 -102.196  -8.46  -1.64  0000
   91   0.067  4384 91234180  217.408  471.769  65.802 -102.095  -8.32  -1.50  0000
   92   0.100  4344 91234181  218.234  472.081  65.784 -102.305  -8.29  -1.47  0000
   93   0.133  4264 91234182  216.828  472.643  66.114 -102.047  -8.26  -1.44  0000
   94   0.167  4267 91234183  215.833  473.337  66.430 -101.893  -8.34  -1.52  0000
   95   0.200  4326 91234184  215.606  473.697  66.557 -101.876  -8.33  -1.51  0000
   96   0.234  4396 91234185  214.977  474.202  66.775 -101.785  -8.52  -1.70  0000
   97   0.267  4190 91234186  214.616  474.558  66.919 -101.740  -8.37  -1.55  0000
   98   0.300  3995 91234187  214.339  474.979  67.070 -101.718  -8.32  -1.50  0000
   99   0.334  4549 91234188  214.167  474.951  67.084 -101.678  -8.50  -1.68  0000
  100   0.367  4089 91234189  214.055  475.682  67.299 -101.721  -8.38  -1.56  0000
  101   0.400  3965 91234190  213.731  476.144  67.468 -101.693  -8.32  -1.50  0000
  102   0.434  3961 91234191  213.076  476.426  67.630 -101.578  -8.37  -1.55  0000
  103   0.467  3925 91234192  212.725  476.722  67.756 -101.530  -8.32  -1.50  0000
  104   0.501  3907 91234193  211.842  476.716  67.869 -101.341  -8.38  -1.56  0000
  105   0.534  3467 91234194  211.056  477.026  68.057 -101.203  -8.18  -1.36  0000
  106   0.567  3383 91234195  211.040  477.466  68.180 -101.240  -8.30  -1.48  0000
  107   0.601  2882 91234196  211.027  477.946  68.313 -101.281  -8.05  -1.23  0000
  108   0.634  2827 91234197  209.588  477.731  68.443 -100.957  -7.99  -1.17  0000
  109   0.667  2420 91234198  208.792  478.086  68.646 -100.823  -7.98  -1.16  0000
  110   0.701  2734 91234199  208.885  477.981  68.605 -100.832  -8.09  -1.27  0000
  111   0.734  1673 91234200  208.722  478.062  68.649 -100.806  -7.46  -0.64  0000
  112   0.767  1295 91234201  208.181  477.673  68.614 -100.656  -6.61   0.21  0000
